stimuli,corr_resp,response,trials.thisRepN,trials.thisTrialN,trials.thisN,trials.thisIndex,thisRow.t,notes,trial.started,key_resp.started,intro_2.started,intro_2.stopped,trial.stopped,key_resp.keys,key_resp.rt,key_resp.duration,reactiontime.started,Fixation.started,Fixation.stopped,question.started,key_resp_2.started,question.stopped,reactiontime.stopped,key_resp_2.keys,key_resp_2.rt,key_resp_2.duration,participant,session,date,expName,psychopyVersion,frameRate,expStart,
,,,,,,,,,0.0037171000003581867,0.009088300008443184,0.009088300008443184,2.023914799996419,3.9415521000046283,space,3.9177560999960406,None,,,,,,,,,,,abi qiet readibg,001,2023-11-28_16h23.14.706,lastdayclasses,2023.2.3,59.88640746186694,2023-11-28 16h23.32.333090 +0530,
PPPPP,p,con,0,0,0,4,3.967071599996416,,,,,,,,,,3.9552980000007665,3.967071599996416,4.973553900010302,5.956777300001704,5.956777300001704,6.456833500007633,6.941072800007532,p,0.9690124999906402,None,abi qiet readibg,001,2023-11-28_16h23.14.706,lastdayclasses,2023.2.3,59.88640746186694,2023-11-28 16h23.32.333090 +0530,
VVPVV,p,incon,0,1,1,0,6.95670809999865,,,,,,,,,,6.942427500005579,6.95670809999865,7.956566200009547,8.956294500007061,8.956294500007061,9.456264499996905,9.474472400004743,p,0.5095317999948747,None,abi qiet readibg,001,2023-11-28_16h23.14.706,lastdayclasses,2023.2.3,59.88640746186694,2023-11-28 16h23.32.333090 +0530,
VVEVV,e,incon,0,2,2,3,9.489538499998162,,,,,,,,,,9.47563970000192,9.489538499998162,10.489491400003317,11.489788400009274,11.489788400009274,11.989502500000526,12.124728199996753,e,0.6211068999982672,None,abi qiet readibg,001,2023-11-28_16h23.14.706,lastdayclasses,2023.2.3,59.88640746186694,2023-11-28 16h23.32.333090 +0530,
RRERR,e,incon,0,3,3,1,12.139456400007475,,,,,,,,,,12.12583900000027,12.139456400007475,13.139129500006675,14.138982100004796,14.138982100004796,,14.590702500005136,p,0.446513100003358,None,abi qiet readibg,001,2023-11-28_16h23.14.706,lastdayclasses,2023.2.3,59.88640746186694,2023-11-28 16h23.32.333090 +0530,
RRPRR,p,incon,0,4,4,2,14.605589300001157,,,,,,,,,,14.592332200001692,14.605589300001157,15.605679500004044,16.60558070000843,16.60558070000843,17.105368800010183,17.257902700002887,p,0.6494244999921648,None,abi qiet readibg,001,2023-11-28_16h23.14.706,lastdayclasses,2023.2.3,59.88640746186694,2023-11-28 16h23.32.333090 +0530,
EEEEE,e,con,0,5,5,5,17.271852999998373,,,,,,,,,,17.259014399998705,17.271852999998373,18.271704900005716,19.27146720000019,19.27146720000019,,19.657340799996746,e,0.3774016999959713,None,abi qiet readibg,001,2023-11-28_16h23.14.706,lastdayclasses,2023.2.3,59.88640746186694,2023-11-28 16h23.32.333090 +0530,
VVEVV,e,incon,1,0,6,3,19.67166590000852,,,,,,,,,,19.65846170000441,19.67166590000852,20.6713657000073,21.671334900005604,21.671334900005604,22.171315900006448,22.206633499998134,e,0.5221822000021348,None,abi qiet readibg,001,2023-11-28_16h23.14.706,lastdayclasses,2023.2.3,59.88640746186694,2023-11-28 16h23.32.333090 +0530,
RRERR,e,incon,1,1,7,1,22.22143920000235,,,,,,,,,,22.207743999999366,22.22143920000235,23.221138699998846,24.220910300005926,24.220910300005926,,24.673176800002693,e,0.43550790000881534,None,abi qiet readibg,001,2023-11-28_16h23.14.706,lastdayclasses,2023.2.3,59.88640746186694,2023-11-28 16h23.32.333090 +0530,
PPPPP,p,con,1,2,8,4,24.68774080000003,,,,,,,,,,24.6741483000078,24.68774080000003,25.687401100003626,26.68737850000616,26.68737850000616,27.187234400000307,27.18887350001023,p,0.4926804999995511,None,abi qiet readibg,001,2023-11-28_16h23.14.706,lastdayclasses,2023.2.3,59.88640746186694,2023-11-28 16h23.32.333090 +0530,
VVPVV,p,incon,1,3,9,0,27.203933299999335,,,,,,,,,,27.189930699998513,27.203933299999335,28.203900599997723,29.203789599996526,29.203789599996526,29.703655999997864,29.839189799997257,p,0.6230330000107642,None,abi qiet readibg,001,2023-11-28_16h23.14.706,lastdayclasses,2023.2.3,59.88640746186694,2023-11-28 16h23.32.333090 +0530,
RRPRR,p,incon,1,4,10,2,29.853838299997733,,,,,,,,,,29.8400876000087,29.853838299997733,30.853412900003605,31.853478799996083,31.853478799996083,32.353260200005025,32.33868590000202,p,0.48250019999977667,None,abi qiet readibg,001,2023-11-28_16h23.14.706,lastdayclasses,2023.2.3,59.88640746186694,2023-11-28 16h23.32.333090 +0530,
EEEEE,e,con,1,5,11,5,32.353260200005025,,,,,,,,,,32.33963440000662,32.353260200005025,33.353316599997925,34.35342440000386,34.35342440000386,34.85308000000077,34.87164150000899,e,0.5028591000009328,None,abi qiet readibg,001,2023-11-28_16h23.14.706,lastdayclasses,2023.2.3,59.88640746186694,2023-11-28 16h23.32.333090 +0530,
VVEVV,e,incon,2,0,12,3,34.886609399996814,,,,,,,,,,34.872615700005554,34.886609399996814,35.88623180000286,36.886342500001774,36.886342500001774,37.386180300003616,37.38797300000442,e,0.49493310000980273,None,abi qiet readibg,001,2023-11-28_16h23.14.706,lastdayclasses,2023.2.3,59.88640746186694,2023-11-28 16h23.32.333090 +0530,
PPPPP,p,con,2,1,13,4,37.4026215000049,,,,,,,,,,37.38902550000057,37.4026215000049,38.402542099996936,39.40226220000477,39.40226220000477,,39.82115660001,p,0.41643199999816716,None,abi qiet readibg,001,2023-11-28_16h23.14.706,lastdayclasses,2023.2.3,59.88640746186694,2023-11-28 16h23.32.333090 +0530,
VVPVV,p,incon,2,2,14,0,39.835789600008866,,,,,,,,,,39.822337999998126,39.835789600008866,40.83543700000155,41.835421299998416,41.835421299998416,,42.303885700006504,e,0.45281629999226425,None,abi qiet readibg,001,2023-11-28_16h23.14.706,lastdayclasses,2023.2.3,59.88640746186694,2023-11-28 16h23.32.333090 +0530,
RRERR,e,incon,2,3,15,1,42.318700600008015,,,,,,,,,,42.30490830000781,42.318700600008015,43.31827499999781,44.31842160000815,44.31842160000815,,44.786283100009314,e,0.4521616999991238,None,abi qiet readibg,001,2023-11-28_16h23.14.706,lastdayclasses,2023.2.3,59.88640746186694,2023-11-28 16h23.32.333090 +0530,
EEEEE,e,con,2,4,16,5,44.80156120000174,,,,,,,,,,44.78751190000912,44.80156120000174,45.80136610000045,46.80152180000732,46.80152180000732,47.30145800000173,47.32014120000531,e,0.5055293000041274,None,abi qiet readibg,001,2023-11-28_16h23.14.706,lastdayclasses,2023.2.3,59.88640746186694,2023-11-28 16h23.32.333090 +0530,
RRPRR,p,incon,2,5,17,2,47.33487770000647,,,,,,,,,,47.32110400000238,47.33487770000647,48.33456339999975,49.33431580000615,49.33431580000615,49.8340920000046,49.83558450000419,p,0.49637489998713136,None,abi qiet readibg,001,2023-11-28_16h23.14.706,lastdayclasses,2023.2.3,59.88640746186694,2023-11-28 16h23.32.333090 +0530,
RRERR,e,incon,3,0,18,1,49.851460500009125,,,,,,,,,,49.83634340000572,49.851460500009125,50.85109779999766,51.85076630000549,51.85076630000549,52.35076060000574,52.73588849999942,e,0.8770444999972824,None,abi qiet readibg,001,2023-11-28_16h23.14.706,lastdayclasses,2023.2.3,59.88640746186694,2023-11-28 16h23.32.333090 +0530,
RRPRR,p,incon,3,1,19,2,52.7505899000098,,,,,,,,,,52.7369924000086,52.7505899000098,53.75065889999678,54.75034749999759,54.75034749999759,,55.20176680000441,p,0.44001429999480024,None,abi qiet readibg,001,2023-11-28_16h23.14.706,lastdayclasses,2023.2.3,59.88640746186694,2023-11-28 16h23.32.333090 +0530,
EEEEE,e,con,3,2,20,5,55.2168362000084,,,,,,,,,,55.20275500000571,55.2168362000084,56.21688210000866,57.2166189999989,57.2166189999989,,57.63569360000838,e,0.4087699999945471,None,abi qiet readibg,001,2023-11-28_16h23.14.706,lastdayclasses,2023.2.3,59.88640746186694,2023-11-28 16h23.32.333090 +0530,
PPPPP,p,con,3,3,21,4,57.65017280000029,,,,,,,,,,57.63661690001027,57.65017280000029,58.649716400002944,59.64959919999819,59.64959919999819,,60.08503119999659,p,0.4329765000002226,None,abi qiet readibg,001,2023-11-28_16h23.14.706,lastdayclasses,2023.2.3,59.88640746186694,2023-11-28 16h23.32.333090 +0530,
VVPVV,p,incon,3,4,22,0,60.09977380000055,,,,,,,,,,60.08591730000626,60.09977380000055,61.09973549999995,62.09929300000658,62.09929300000658,,62.534086200001184,p,0.4302647999866167,None,abi qiet readibg,001,2023-11-28_16h23.14.706,lastdayclasses,2023.2.3,59.88640746186694,2023-11-28 16h23.32.333090 +0530,
VVEVV,e,incon,3,5,23,3,62.55026230000658,,,,,,,,,,62.53510819999792,62.55026230000658,63.565757200005464,64.54901070000778,64.54901070000778,65.04891939999652,65.11810980000882,e,0.5664334000030067,None,abi qiet readibg,001,2023-11-28_16h23.14.706,lastdayclasses,2023.2.3,59.88640746186694,2023-11-28 16h23.32.333090 +0530,
RRERR,e,incon,4,0,24,1,65.13220780000847,,,,,,,,,,65.11928250000346,65.13220780000847,66.13204160000896,67.1323570000095,67.1323570000095,67.63208609999856,67.66738810000243,e,0.5234810999972979,None,abi qiet readibg,001,2023-11-28_16h23.14.706,lastdayclasses,2023.2.3,59.88640746186694,2023-11-28 16h23.32.333090 +0530,
PPPPP,p,con,4,1,25,4,67.68210330000147,,,,,,,,,,67.66839710000204,67.68210330000147,68.6818484999967,69.68172790000972,69.68172790000972,,70.11632539999846,p,0.4297112000058405,None,abi qiet readibg,001,2023-11-28_16h23.14.706,lastdayclasses,2023.2.3,59.88640746186694,2023-11-28 16h23.32.333090 +0530,
VVEVV,e,incon,4,2,26,3,70.1316203000024,,,,,,,,,,70.11719800000719,70.1316203000024,71.13161009999749,72.13133070000913,72.13133070000913,,72.54946740000742,e,0.4055017999926349,None,abi qiet readibg,001,2023-11-28_16h23.14.706,lastdayclasses,2023.2.3,59.88640746186694,2023-11-28 16h23.32.333090 +0530,
RRPRR,p,incon,4,3,27,2,72.56455070000084,,,,,,,,,,72.5505004000006,72.56455070000084,73.56435329999658,74.56447320000734,74.56447320000734,,74.99925210000947,p,0.42150199999741744,None,abi qiet readibg,001,2023-11-28_16h23.14.706,lastdayclasses,2023.2.3,59.88640746186694,2023-11-28 16h23.32.333090 +0530,
EEEEE,e,con,4,4,28,5,75.01421069999924,,,,,,,,,,75.00034280000546,75.01421069999924,76.01417750000837,77.01427640000475,77.01427640000475,77.51385860001028,77.53271060000407,e,0.5135532999993302,None,abi qiet readibg,001,2023-11-28_16h23.14.706,lastdayclasses,2023.2.3,59.88640746186694,2023-11-28 16h23.32.333090 +0530,
VVPVV,p,incon,4,5,29,0,77.54728590000013,,,,,,,,,,77.53433670000231,77.54728590000013,78.54722550000588,79.54739590000827,79.54739590000827,,79.94861079999828,p,0.39314819998980965,None,abi qiet readibg,001,2023-11-28_16h23.14.706,lastdayclasses,2023.2.3,59.88640746186694,2023-11-28 16h23.32.333090 +0530,
