stimuli,corr_resp,response,trials.thisRepN,trials.thisTrialN,trials.thisN,trials.thisIndex,thisRow.t,notes,trial.started,text.started,key_resp.started,text.stopped,intro_2.started,trial.stopped,key_resp.keys,key_resp.rt,key_resp.duration,reactiontime.started,Fixation.started,Fixation.stopped,question.started,key_resp_2.started,question.stopped,reactiontime.stopped,key_resp_2.keys,key_resp_2.rt,key_resp_2.duration,participant,session,date,expName,psychopyVersion,frameRate,expStart,
,,,,,,,,,0.00291579999611713,0.008070499985478818,0.008070499985478818,2.011844199994812,2.011844199994812,9.779364599991823,n,9.760457099997438,None,,,,,,,,,,,manan last day,001,2023-11-25_16h03.55.349,lastdayclasses,2023.2.3,59.93403660637168,2023-11-25 16h04.05.819714 +0530,
EEEEE,e,con,0,0,0,5,9.809335900004953,,,,,,,,,,,9.79431850000401,9.809335900004953,10.810638199996902,11.793849799985765,11.793849799985765,12.2937915000075,13.262277800007723,e,1.4603202999860514,None,manan last day,001,2023-11-25_16h03.55.349,lastdayclasses,2023.2.3,59.93403660637168,2023-11-25 16h04.05.819714 +0530,
PPPPP,p,con,0,1,1,4,13.27674269999261,,,,,,,,,,,13.263737700006459,13.27674269999261,14.27676939999219,15.276611600012984,15.276611600012984,15.776535599987255,19.92833990001236,p,4.648620399995707,None,manan last day,001,2023-11-25_16h03.55.349,lastdayclasses,2023.2.3,59.93403660637168,2023-11-25 16h04.05.819714 +0530,
VVEVV,e,incon,0,2,2,3,19.949303400004283,,,,,,,,,,,19.929360999987694,19.949303400004283,20.959198700002162,21.942624599992996,21.942624599992996,22.442386200011242,22.477521399996476,e,0.519040600018343,None,manan last day,001,2023-11-25_16h03.55.349,lastdayclasses,2023.2.3,59.93403660637168,2023-11-25 16h04.05.819714 +0530,
RRPRR,p,incon,0,3,3,2,22.492369699990377,,,,,,,,,,,22.47856290001073,22.492369699990377,23.49244999999064,24.492033199989237,24.492033199989237,,24.861120099987602,p,0.35678780000307597,None,manan last day,001,2023-11-25_16h03.55.349,lastdayclasses,2023.2.3,59.93403660637168,2023-11-25 16h04.05.819714 +0530,
VVPVV,p,incon,0,4,4,0,24.87551079998957,,,,,,,,,,,24.862163399986457,24.87551079998957,25.875200699985726,26.875196899985895,26.875196899985895,27.37490140000591,27.760490799992112,p,0.8826744999969378,None,manan last day,001,2023-11-25_16h03.55.349,lastdayclasses,2023.2.3,59.93403660637168,2023-11-25 16h04.05.819714 +0530,
RRERR,e,incon,0,5,5,1,27.775079799990635,,,,,,,,,,,27.76147719999426,27.775079799990635,28.774749800009886,29.774805399996694,29.774805399996694,30.274635600013426,30.426471000013407,e,0.6439188999938779,None,manan last day,001,2023-11-25_16h03.55.349,lastdayclasses,2023.2.3,59.93403660637168,2023-11-25 16h04.05.819714 +0530,
VVPVV,p,incon,1,0,6,0,30.441419000009773,,,,,,,,,,,30.427419799991185,30.441419000009773,31.441386099992087,32.441192400001455,32.441192400001455,32.94106290000491,33.02629320000415,p,0.5690327000047546,None,manan last day,001,2023-11-25_16h03.55.349,lastdayclasses,2023.2.3,59.93403660637168,2023-11-25 16h04.05.819714 +0530,
RRERR,e,incon,1,1,7,1,33.04108830000041,,,,,,,,,,,33.02733320000698,33.04108830000041,34.04075990000274,35.040772700012894,35.040772700012894,35.54073269999935,35.89231729999301,e,0.8447849999938626,None,manan last day,001,2023-11-25_16h03.55.349,lastdayclasses,2023.2.3,59.93403660637168,2023-11-25 16h04.05.819714 +0530,
RRPRR,p,incon,1,2,8,2,35.907196299987845,,,,,,,,,,,35.893284299992956,35.907196299987845,36.90719430000172,37.90698259999044,37.90698259999044,,38.375395300012315,p,0.45231610001064837,None,manan last day,001,2023-11-25_16h03.55.349,lastdayclasses,2023.2.3,59.93403660637168,2023-11-25 16h04.05.819714 +0530,
PPPPP,p,con,1,3,9,4,38.39049170000362,,,,,,,,,,,38.37639749998925,38.39049170000362,39.39023260000977,40.39018590000342,40.39018590000342,40.89010449999478,40.92539879999822,p,0.5253811000147834,None,manan last day,001,2023-11-25_16h03.55.349,lastdayclasses,2023.2.3,59.93403660637168,2023-11-25 16h04.05.819714 +0530,
EEEEE,e,con,1,4,10,5,40.94001819999539,,,,,,,,,,,40.92654859999311,40.94001819999539,41.939814499986824,42.93966919998638,42.93966919998638,,43.391817199997604,e,0.4454111999948509,None,manan last day,001,2023-11-25_16h03.55.349,lastdayclasses,2023.2.3,59.93403660637168,2023-11-25 16h04.05.819714 +0530,
VVEVV,e,incon,1,5,11,3,43.40630830000737,,,,,,,,,,,43.39281990000745,43.40630830000737,44.40621089999331,45.40583790000528,45.40583790000528,45.90586820000317,45.97460570000112,e,0.5587079000251833,None,manan last day,001,2023-11-25_16h03.55.349,lastdayclasses,2023.2.3,59.93403660637168,2023-11-25 16h04.05.819714 +0530,
VVEVV,e,incon,2,0,12,3,45.98945709998952,,,,,,,,,,,45.975788100011414,45.98945709998952,46.98924029999762,47.989047499984736,47.989047499984736,48.488995499996236,48.97407870000461,e,0.9803678000171203,None,manan last day,001,2023-11-25_16h03.55.349,lastdayclasses,2023.2.3,59.93403660637168,2023-11-25 16h04.05.819714 +0530,
PPPPP,p,con,2,1,13,4,48.98881030001212,,,,,,,,,,,48.97510350000812,48.98881030001212,49.98879709999892,50.98865409998689,50.98865409998689,51.488618700008374,51.60708690001047,p,0.6041751999873668,None,manan last day,001,2023-11-25_16h03.55.349,lastdayclasses,2023.2.3,59.93403660637168,2023-11-25 16h04.05.819714 +0530,
EEEEE,e,con,2,2,14,5,51.621818499988876,,,,,,,,,,,51.608128599997144,51.621818499988876,52.621756999986246,53.62158420000924,53.62158420000924,,53.99035969999386,e,0.35812190000433475,None,manan last day,001,2023-11-25_16h03.55.349,lastdayclasses,2023.2.3,59.93403660637168,2023-11-25 16h04.05.819714 +0530,
VVPVV,p,incon,2,3,15,0,54.004768799990416,,,,,,,,,,,53.99134810001124,54.004768799990416,55.00482309999643,56.004676000011386,56.004676000011386,56.504456700000446,56.52317920001224,p,0.5136239999847021,None,manan last day,001,2023-11-25_16h03.55.349,lastdayclasses,2023.2.3,59.93403660637168,2023-11-25 16h04.05.819714 +0530,
RRERR,e,incon,2,4,16,1,56.53782950001187,,,,,,,,,,,56.524371100007556,56.53782950001187,57.53784010000527,58.53764379999484,58.53764379999484,59.037676000007195,59.05638299998827,e,0.5080974999873433,None,manan last day,001,2023-11-25_16h03.55.349,lastdayclasses,2023.2.3,59.93403660637168,2023-11-25 16h04.05.819714 +0530,
RRPRR,p,incon,2,5,17,2,59.070833900012076,,,,,,,,,,,59.057414000009885,59.070833900012076,60.07075199999963,61.070661900012055,61.070661900012055,61.57041250000475,61.62275909999153,p,0.5394150000065565,None,manan last day,001,2023-11-25_16h03.55.349,lastdayclasses,2023.2.3,59.93403660637168,2023-11-25 16h04.05.819714 +0530,
RRPRR,p,incon,3,0,18,2,61.63711179999518,,,,,,,,,,,61.623886399989715,61.63711179999518,62.63708939999924,63.63678460000665,63.63678460000665,64.13702349999221,64.12203530000988,p,0.47043719998328015,None,manan last day,001,2023-11-25_16h03.55.349,lastdayclasses,2023.2.3,59.93403660637168,2023-11-25 16h04.05.819714 +0530,
VVEVV,e,incon,3,1,19,3,64.13702349999221,,,,,,,,,,,64.12303580000298,64.13702349999221,65.1368036000058,66.1366211999848,66.1366211999848,66.63671089999843,66.82255859998986,e,0.6835168999969028,None,manan last day,001,2023-11-25_16h03.55.349,lastdayclasses,2023.2.3,59.93403660637168,2023-11-25 16h04.05.819714 +0530,
EEEEE,e,con,3,2,20,5,66.83648450000328,,,,,,,,,,,66.82381249999162,66.83648450000328,67.83637100001215,68.83640209998703,68.83640209998703,69.33635480000521,69.32150220000767,p,0.47059290000470355,None,manan last day,001,2023-11-25_16h03.55.349,lastdayclasses,2023.2.3,59.93403660637168,2023-11-25 16h04.05.819714 +0530,
PPPPP,p,con,3,3,21,4,69.33635480000521,,,,,,,,,,,69.32258340000408,69.33635480000521,70.33607610000763,71.33577700000023,71.33577700000023,71.83604639998521,71.9045080000069,p,0.5512420000159182,None,manan last day,001,2023-11-25_16h03.55.349,lastdayclasses,2023.2.3,59.93403660637168,2023-11-25 16h04.05.819714 +0530,
VVPVV,p,incon,3,4,22,0,71.91929319998599,,,,,,,,,,,71.90584769999259,71.91929319998599,72.91894860001048,73.91882669998449,73.91882669998449,74.4185734000057,74.47064660000615,p,0.5486311000131536,None,manan last day,001,2023-11-25_16h03.55.349,lastdayclasses,2023.2.3,59.93403660637168,2023-11-25 16h04.05.819714 +0530,
RRERR,e,incon,3,5,23,1,74.48544439999387,,,,,,,,,,,74.47167319999426,74.48544439999387,75.48532989999512,76.48527289999765,76.48527289999765,76.98508270000457,77.05405430000974,e,0.5635619999957271,None,manan last day,001,2023-11-25_16h03.55.349,lastdayclasses,2023.2.3,59.93403660637168,2023-11-25 16h04.05.819714 +0530,
RRERR,e,incon,4,0,24,1,77.06859680000343,,,,,,,,,,,77.05514029998449,77.06859680000343,78.06840300001204,79.06816190000973,79.06816190000973,79.56827479999629,79.67009010000038,e,0.5950586999824736,None,manan last day,001,2023-11-25_16h03.55.349,lastdayclasses,2023.2.3,59.93403660637168,2023-11-25 16h04.05.819714 +0530,
VVPVV,p,incon,4,1,25,0,79.68500550001045,,,,,,,,,,,79.67114089999814,79.68500550001045,80.68459680001251,81.68432659999235,81.68432659999235,,82.10328849998768,p,0.40864380000857636,None,manan last day,001,2023-11-25_16h03.55.349,lastdayclasses,2023.2.3,59.93403660637168,2023-11-25 16h04.05.819714 +0530,
EEEEE,e,con,4,2,26,5,82.11778209998738,,,,,,,,,,,82.10441070000525,82.11778209998738,83.11741539998911,84.11748740001349,84.11748740001349,84.61739020000095,84.66963879999821,e,0.5425373000034597,None,manan last day,001,2023-11-25_16h03.55.349,lastdayclasses,2023.2.3,59.93403660637168,2023-11-25 16h04.05.819714 +0530,
RRPRR,p,incon,4,3,27,2,84.68419209998683,,,,,,,,,,,84.67065189999994,84.68419209998683,85.68401629998698,86.68406470000627,86.68406470000627,87.18394019998959,87.1690823000099,p,0.4695038000063505,None,manan last day,001,2023-11-25_16h03.55.349,lastdayclasses,2023.2.3,59.93403660637168,2023-11-25 16h04.05.819714 +0530,
VVEVV,e,incon,4,4,28,3,87.18394019998959,,,,,,,,,,,87.1700520000013,87.18394019998959,88.1836869000108,89.1836340999871,89.1836340999871,89.68351500001154,89.66866480000317,e,0.4717344999953639,None,manan last day,001,2023-11-25_16h03.55.349,lastdayclasses,2023.2.3,59.93403660637168,2023-11-25 16h04.05.819714 +0530,
PPPPP,p,con,4,5,29,4,89.68351500001154,,,,,,,,,,,89.66993139998522,89.68351500001154,90.6833934999886,91.68327030001092,91.68327030001092,92.1830168000015,92.16857249999885,p,0.47231700000702403,None,manan last day,001,2023-11-25_16h03.55.349,lastdayclasses,2023.2.3,59.93403660637168,2023-11-25 16h04.05.819714 +0530,
