stimuli,corr_resp,response,trials.thisRepN,trials.thisTrialN,trials.thisN,trials.thisIndex,thisRow.t,notes,trial.started,key_resp.started,intro_2.started,intro_2.stopped,trial.stopped,key_resp.keys,key_resp.rt,key_resp.duration,reactiontime.started,Fixation.started,Fixation.stopped,question.started,key_resp_2.started,question.stopped,reactiontime.stopped,key_resp_2.keys,key_resp_2.rt,key_resp_2.duration,participant,session,date,expName,psychopyVersion,frameRate,expStart,
,,,,,,,,,0.0018632999999681488,0.007539800004451536,0.007539800004451536,2.0206435000000056,5.054478199992445,space,5.037970400007907,None,,,,,,,,,,,naidile quiet reading,001,2023-11-28_16h08.28.253,lastdayclasses,2023.2.3,60.139415189694105,2023-11-28 16h08.41.133701 +0530,
PPPPP,p,con,0,0,0,4,5.070253600002616,,,,,,,,,,5.06266909999249,5.070253600002616,6.069862199990894,7.069864099990809,7.069864099990809,7.569715199992061,7.837426400001277,p,0.7654703999869525,None,naidile quiet reading,001,2023-11-28_16h08.28.253,lastdayclasses,2023.2.3,60.139415189694105,2023-11-28 16h08.41.133701 +0530,
EEEEE,e,con,0,1,1,5,7.853160500002559,,,,,,,,,,7.84153740000329,7.853160500002559,8.852633300004527,9.852784399990924,9.852784399990924,10.352791800003615,10.353682699991623,e,0.4860896000027424,None,naidile quiet reading,001,2023-11-28_16h08.28.253,lastdayclasses,2023.2.3,60.139415189694105,2023-11-28 16h08.41.133701 +0530,
RRERR,e,incon,0,2,2,1,10.36950899999647,,,,,,,,,,10.354096800001571,10.36950899999647,11.36937780000153,12.369014199997764,12.369014199997764,12.86923999999999,12.969960699992953,e,0.5916470000083791,None,naidile quiet reading,001,2023-11-28_16h08.28.253,lastdayclasses,2023.2.3,60.139415189694105,2023-11-28 16h08.41.133701 +0530,
VVPVV,p,incon,0,3,3,0,12.985733900000923,,,,,,,,,,12.970526299992343,12.985733900000923,13.98554399999557,14.985591499993461,14.985591499993461,15.485550900004455,15.553005499998108,p,0.5640143000055104,None,naidile quiet reading,001,2023-11-28_16h08.28.253,lastdayclasses,2023.2.3,60.139415189694105,2023-11-28 16h08.41.133701 +0530,
RRPRR,p,incon,0,4,4,2,15.568660099990666,,,,,,,,,,15.553455200002645,15.568660099990666,16.568727999998373,17.56855369999539,17.56855369999539,,18.036093599992455,p,0.46101590000034776,None,naidile quiet reading,001,2023-11-28_16h08.28.253,lastdayclasses,2023.2.3,60.139415189694105,2023-11-28 16h08.41.133701 +0530,
VVEVV,e,incon,0,5,5,3,18.051950499997474,,,,,,,,,,18.036499499998172,18.051950499997474,19.051548100003856,20.051478900000802,20.051478900000802,,20.502516900000046,e,0.4334585999895353,None,naidile quiet reading,001,2023-11-28_16h08.28.253,lastdayclasses,2023.2.3,60.139415189694105,2023-11-28 16h08.41.133701 +0530,
EEEEE,e,con,1,0,6,5,20.518194599993876,,,,,,,,,,20.50292189999891,20.518194599993876,21.517607200003113,22.51776639999298,22.51776639999298,23.01779899999383,23.08636139999726,e,0.5508697999903234,None,naidile quiet reading,001,2023-11-28_16h08.28.253,lastdayclasses,2023.2.3,60.139415189694105,2023-11-28 16h08.41.133701 +0530,
VVEVV,e,incon,1,1,7,3,23.101440500002354,,,,,,,,,,23.08725250000134,23.101440500002354,24.1009672999935,25.101132299998426,25.101132299998426,25.600629799999297,25.601963900000555,e,0.48473050000029616,None,naidile quiet reading,001,2023-11-28_16h08.28.253,lastdayclasses,2023.2.3,60.139415189694105,2023-11-28 16h08.41.133701 +0530,
VVPVV,p,incon,1,2,8,0,25.6178413000016,,,,,,,,,,25.602896199998213,25.6178413000016,26.617436999993515,27.61753599999065,27.61753599999065,,28.019303499997477,p,0.3943187999975635,None,naidile quiet reading,001,2023-11-28_16h08.28.253,lastdayclasses,2023.2.3,60.139415189694105,2023-11-28 16h08.41.133701 +0530,
RRERR,e,incon,1,3,9,1,28.034056799995597,,,,,,,,,,28.020348499994725,28.034056799995597,29.03379539999878,30.03392079999321,30.03392079999321,30.533917299995665,30.60274909999862,e,0.5657528000010643,None,naidile quiet reading,001,2023-11-28_16h08.28.253,lastdayclasses,2023.2.3,60.139415189694105,2023-11-28 16h08.41.133701 +0530,
RRPRR,p,incon,1,4,10,2,30.617316000003484,,,,,,,,,,30.603821600001538,30.617316000003484,31.617027999993297,32.61665689999063,32.61665689999063,,33.03490220000094,p,0.41152839999995194,None,naidile quiet reading,001,2023-11-28_16h08.28.253,lastdayclasses,2023.2.3,60.139415189694105,2023-11-28 16h08.41.133701 +0530,
PPPPP,p,con,1,5,11,4,33.05002179999428,,,,,,,,,,33.0359499000042,33.05002179999428,34.04979039999307,35.05037040000025,35.05037040000025,,35.467399100001785,p,0.4079153999919072,None,naidile quiet reading,001,2023-11-28_16h08.28.253,lastdayclasses,2023.2.3,60.139415189694105,2023-11-28 16h08.41.133701 +0530,
VVPVV,p,incon,2,0,12,0,35.48308229999384,,,,,,,,,,35.468087699991884,35.48308229999384,36.48265180000453,37.48290819999238,37.48290819999238,,37.95624499999394,p,0.4663412000081735,None,naidile quiet reading,001,2023-11-28_16h08.28.253,lastdayclasses,2023.2.3,60.139415189694105,2023-11-28 16h08.41.133701 +0530,
EEEEE,e,con,2,1,13,5,37.968353899996146,,,,,,,,,,37.95762329999707,37.968353899996146,38.98224719999416,39.96579180000117,39.96579180000117,,40.351224999991246,e,0.38238680000358727,None,naidile quiet reading,001,2023-11-28_16h08.28.253,lastdayclasses,2023.2.3,60.139415189694105,2023-11-28 16h08.41.133701 +0530,
PPPPP,p,con,2,2,14,4,40.365493399993284,,,,,,,,,,40.35233799999696,40.365493399993284,41.36498389999906,42.36518890000298,42.36518890000298,,42.80055050000374,p,0.4274805000022752,None,naidile quiet reading,001,2023-11-28_16h08.28.253,lastdayclasses,2023.2.3,60.139415189694105,2023-11-28 16h08.41.133701 +0530,
VVEVV,e,incon,2,3,15,3,42.815393299999414,,,,,,,,,,42.80174619999889,42.815393299999414,43.81503040000098,44.81524229999923,44.81524229999923,45.31500069999311,45.3172831999982,e,0.49978800000099,None,naidile quiet reading,001,2023-11-28_16h08.28.253,lastdayclasses,2023.2.3,60.139415189694105,2023-11-28 16h08.41.133701 +0530,
RRERR,e,incon,2,4,16,1,45.331463099995744,,,,,,,,,,45.31824379999307,45.331463099995744,46.33149019999837,47.33170589999645,47.33170589999645,,47.80027009999321,p,0.45810430000710767,None,naidile quiet reading,001,2023-11-28_16h08.28.253,lastdayclasses,2023.2.3,60.139415189694105,2023-11-28 16h08.41.133701 +0530,
RRPRR,p,incon,2,5,17,2,47.81479950000357,,,,,,,,,,47.801365799998166,47.81479950000357,48.8143596000009,49.81436469999608,49.81436469999608,50.31428439999581,50.482342200004496,p,0.6633349000039743,None,naidile quiet reading,001,2023-11-28_16h08.28.253,lastdayclasses,2023.2.3,60.139415189694105,2023-11-28 16h08.41.133701 +0530,
PPPPP,p,con,3,0,18,4,50.49762490000285,,,,,,,,,,50.48336189999827,50.49762490000285,51.497626299998956,52.497086699993815,52.497086699993815,52.997472499992,53.11539869999979,p,0.6066518000006909,None,naidile quiet reading,001,2023-11-28_16h08.28.253,lastdayclasses,2023.2.3,60.139415189694105,2023-11-28 16h08.41.133701 +0530,
RRPRR,p,incon,3,1,19,2,53.13055119999626,,,,,,,,,,53.116482299999916,53.13055119999626,54.13050729999668,55.130187499991735,55.130187499991735,55.63006470000255,55.61531439999817,e,0.48286750000261236,None,naidile quiet reading,001,2023-11-28_16h08.28.253,lastdayclasses,2023.2.3,60.139415189694105,2023-11-28 16h08.41.133701 +0530,
RRERR,e,incon,3,2,20,1,55.63006470000255,,,,,,,,,,55.61687709999387,55.63006470000255,56.62987960000464,57.62968289999117,57.62968289999117,,58.04703970000264,e,0.41506299999309704,None,naidile quiet reading,001,2023-11-28_16h08.28.253,lastdayclasses,2023.2.3,60.139415189694105,2023-11-28 16h08.41.133701 +0530,
EEEEE,e,con,3,3,21,5,58.06297830000403,,,,,,,,,,58.04740630000015,58.06297830000403,59.063120199993136,60.046413699994446,60.046413699994446,,60.44851919999928,e,0.3971908999956213,None,naidile quiet reading,001,2023-11-28_16h08.28.253,lastdayclasses,2023.2.3,60.139415189694105,2023-11-28 16h08.41.133701 +0530,
VVEVV,e,incon,3,4,22,3,60.46290630000294,,,,,,,,,,60.449619499995606,60.46290630000294,61.46277939999709,62.46267340000486,62.46267340000486,,62.913960699996096,e,0.43494199999258853,None,naidile quiet reading,001,2023-11-28_16h08.28.253,lastdayclasses,2023.2.3,60.139415189694105,2023-11-28 16h08.41.133701 +0530,
VVPVV,p,incon,3,5,23,0,62.92924669999047,,,,,,,,,,62.91489610000281,62.92924669999047,63.92912559999968,64.92922309999994,64.92922309999994,65.42906510000466,65.49717119999696,p,0.5615456999948947,None,naidile quiet reading,001,2023-11-28_16h08.28.253,lastdayclasses,2023.2.3,60.139415189694105,2023-11-28 16h08.41.133701 +0530,
PPPPP,p,con,4,0,24,4,65.51219870000205,,,,,,,,,,65.49817179999081,65.51219870000205,66.51206100000127,67.5122141000029,67.5122141000029,68.0117453999992,67.99670380000316,p,0.472312800004147,None,naidile quiet reading,001,2023-11-28_16h08.28.253,lastdayclasses,2023.2.3,60.139415189694105,2023-11-28 16h08.41.133701 +0530,
VVEVV,e,incon,4,1,25,3,68.0117453999992,,,,,,,,,,67.99754769999709,68.0117453999992,69.01190209999913,70.01192979999178,70.01192979999178,70.51150629999756,70.51313399999344,e,0.4862192000000505,None,naidile quiet reading,001,2023-11-28_16h08.28.253,lastdayclasses,2023.2.3,60.139415189694105,2023-11-28 16h08.41.133701 +0530,
RRPRR,p,incon,4,2,26,2,70.5281765999971,,,,,,,,,,70.51458639999328,70.5281765999971,71.52806549999514,72.52830599999288,72.52830599999288,73.02803020000283,73.11313440000231,p,0.5672832999989623,None,naidile quiet reading,001,2023-11-28_16h08.28.253,lastdayclasses,2023.2.3,60.139415189694105,2023-11-28 16h08.41.133701 +0530,
EEEEE,e,con,4,3,27,5,73.12783599999966,,,,,,,,,,73.1146388999914,73.12783599999966,74.12760009999329,75.12763679999625,75.12763679999625,75.6275553000014,75.79625810000289,e,0.6615357999980915,None,naidile quiet reading,001,2023-11-28_16h08.28.253,lastdayclasses,2023.2.3,60.139415189694105,2023-11-28 16h08.41.133701 +0530,
VVPVV,p,incon,4,4,28,0,75.81107090000296,,,,,,,,,,75.79737980000209,75.81107090000296,76.81073660000402,77.81064490000426,77.81064490000426,78.31061630000477,78.32883329999459,p,0.5072380000056,None,naidile quiet reading,001,2023-11-28_16h08.28.253,lastdayclasses,2023.2.3,60.139415189694105,2023-11-28 16h08.41.133701 +0530,
RRERR,e,incon,4,5,29,1,78.34427719999803,,,,,,,,,,78.3297797999985,78.34427719999803,79.34382919999189,80.34393190000264,80.34393190000264,,80.79541120000067,e,0.43832200000179,None,naidile quiet reading,001,2023-11-28_16h08.28.253,lastdayclasses,2023.2.3,60.139415189694105,2023-11-28 16h08.41.133701 +0530,
