stimuli,corr_resp,response,trials.thisRepN,trials.thisTrialN,trials.thisN,trials.thisIndex,thisRow.t,notes,trial.started,key_resp.started,intro_2.started,trial.stopped,key_resp.keys,key_resp.rt,key_resp.duration,reactiontime.started,Fixation.started,Fixation.stopped,question.started,key_resp_2.started,question.stopped,reactiontime.stopped,key_resp_2.keys,key_resp_2.rt,key_resp_2.duration,participant,session,date,expName,psychopyVersion,frameRate,expStart,
,,,,,,,,,0.0023778000031597912,0.009294899995438755,0.009294899995438755,1.0046241999953054,space,0.9931194999953732,None,,,,,,,,,,,participant quiet reading,001,2023-11-29_11h33.46.897,lastdayclasses,2023.2.3,60.06006006291562,2023-11-29 11h34.07.562180 +0530,
PPPPP,p,con,0,0,0,4,1.0378475000034086,,,,,,,,,1.0232321999792475,1.0378475000034086,2.050497499993071,3.017171399988001,3.017171399988001,3.5172268000023905,3.5197105999977794,p,0.49565150000853464,None,participant quiet reading,001,2023-11-29_11h33.46.897,lastdayclasses,2023.2.3,60.06006006291562,2023-11-29 11h34.07.562180 +0530,
VVPVV,p,incon,0,1,1,0,3.538529599987669,,,,,,,,,3.525520700000925,3.538529599987669,4.5502055999822915,5.5335615999938454,5.5335615999938454,6.0332033000013325,6.168369699997129,e,0.6223344999889378,None,participant quiet reading,001,2023-11-29_11h33.46.897,lastdayclasses,2023.2.3,60.06006006291562,2023-11-29 11h34.07.562180 +0530,
VVEVV,e,incon,0,2,2,3,6.183165399997961,,,,,,,,,6.169352199998684,6.183165399997961,7.183450399985304,8.18304099998204,8.18304099998204,,8.651751199999126,e,0.4629683999810368,None,participant quiet reading,001,2023-11-29_11h33.46.897,lastdayclasses,2023.2.3,60.06006006291562,2023-11-29 11h34.07.562180 +0530,
RRPRR,p,incon,0,3,3,2,8.66619809999247,,,,,,,,,8.652843899995787,8.66619809999247,9.66648789998726,10.665985300001921,10.665985300001921,,11.10063979998813,p,0.417811100021936,None,participant quiet reading,001,2023-11-29_11h33.46.897,lastdayclasses,2023.2.3,60.06006006291562,2023-11-29 11h34.07.562180 +0530,
RRERR,e,incon,0,4,4,1,11.115967299992917,,,,,,,,,11.101661699998658,11.115967299992917,12.116135299991583,13.116060300002573,13.116060300002573,,13.451960299978964,e,0.3331748000055086,None,participant quiet reading,001,2023-11-29_11h33.46.897,lastdayclasses,2023.2.3,60.06006006291562,2023-11-29 11h34.07.562180 +0530,
EEEEE,e,con,0,5,5,5,13.465962899994338,,,,,,,,,13.453109699999914,13.465962899994338,14.465516500000376,15.465572299988708,15.465572299988708,,15.867493199999444,e,0.3925026999786496,None,participant quiet reading,001,2023-11-29_11h33.46.897,lastdayclasses,2023.2.3,60.06006006291562,2023-11-29 11h34.07.562180 +0530,
PPPPP,p,con,1,0,6,4,15.882368699996732,,,,,,,,,15.86843209998915,15.882368699996732,16.881938100006664,17.88175939998473,17.88175939998473,18.381615699996473,18.366741299978457,p,0.4704083999968134,None,participant quiet reading,001,2023-11-29_11h33.46.897,lastdayclasses,2023.2.3,60.06006006291562,2023-11-29 11h34.07.562180 +0530,
EEEEE,e,con,1,1,7,5,18.381615699996473,,,,,,,,,18.36765919998288,18.381615699996473,19.38180659999489,20.381501700001536,20.381501700001536,,20.733052499999758,p,0.3465400999994017,None,participant quiet reading,001,2023-11-29_11h33.46.897,lastdayclasses,2023.2.3,60.06006006291562,2023-11-29 11h34.07.562180 +0530,
RRERR,e,incon,1,2,8,1,20.748392799985595,,,,,,,,,20.734196100005647,20.748392799985595,21.748438199982047,22.7480699000007,22.7480699000007,,23.16676870000083,e,0.4022132999962196,None,participant quiet reading,001,2023-11-29_11h33.46.897,lastdayclasses,2023.2.3,60.06006006291562,2023-11-29 11h34.07.562180 +0530,
RRPRR,p,incon,1,3,9,2,23.18145099998219,,,,,,,,,23.16781469999114,23.18145099998219,24.18133520000265,25.180878999992274,25.180878999992274,,25.549861999985296,p,0.35985949999303557,None,participant quiet reading,001,2023-11-29_11h33.46.897,lastdayclasses,2023.2.3,60.06006006291562,2023-11-29 11h34.07.562180 +0530,
VVEVV,e,incon,1,4,10,3,25.5641560999793,,,,,,,,,25.550974499987205,25.5641560999793,26.56432949998998,27.563939399988158,27.563939399988158,,28.01566209999146,e,0.43823269999120384,None,participant quiet reading,001,2023-11-29_11h33.46.897,lastdayclasses,2023.2.3,60.06006006291562,2023-11-29 11h34.07.562180 +0530,
VVPVV,p,incon,1,5,11,0,28.03046290000202,,,,,,,,,28.016875999979675,28.03046290000202,29.030245100002503,30.030303299980005,30.030303299980005,,30.46521589998156,e,0.4206433999934234,None,participant quiet reading,001,2023-11-29_11h33.46.897,lastdayclasses,2023.2.3,60.06006006291562,2023-11-29 11h34.07.562180 +0530,
PPPPP,p,con,2,0,12,4,30.480080099980114,,,,,,,,,30.466297899984056,30.480080099980114,31.47994399999152,32.48017229998368,32.48017229998368,,32.84888449998107,p,0.3564163999981247,None,participant quiet reading,001,2023-11-29_11h33.46.897,lastdayclasses,2023.2.3,60.06006006291562,2023-11-29 11h34.07.562180 +0530,
RRERR,e,incon,2,1,13,1,32.86337029997958,,,,,,,,,32.84984509999049,32.86337029997958,33.86308260000078,34.86319229999208,34.86319229999208,,35.33086550000007,e,0.4510370999923907,None,participant quiet reading,001,2023-11-29_11h33.46.897,lastdayclasses,2023.2.3,60.06006006291562,2023-11-29 11h34.07.562180 +0530,
VVEVV,e,incon,2,2,14,3,35.34651259999373,,,,,,,,,35.33204300000216,35.34651259999373,36.345975699980045,37.34621319998405,37.34621319998405,37.84627899999032,37.94780619998346,e,0.5992778000072576,None,participant quiet reading,001,2023-11-29_11h33.46.897,lastdayclasses,2023.2.3,60.06006006291562,2023-11-29 11h34.07.562180 +0530,
EEEEE,e,con,2,3,15,5,37.962660499993945,,,,,,,,,37.94877249997808,37.962660499993945,38.96248889999697,39.96247699999367,39.96247699999367,40.46259369998006,40.44785289998981,e,0.479777100001229,None,participant quiet reading,001,2023-11-29_11h33.46.897,lastdayclasses,2023.2.3,60.06006006291562,2023-11-29 11h34.07.562180 +0530,
RRPRR,p,incon,2,4,16,2,40.46259369998006,,,,,,,,,40.448927899997216,40.46259369998006,41.46243359998334,42.46218059997773,42.46218059997773,,42.84649579998222,p,0.374025500001153,None,participant quiet reading,001,2023-11-29_11h33.46.897,lastdayclasses,2023.2.3,60.06006006291562,2023-11-29 11h34.07.562180 +0530,
VVPVV,p,incon,2,5,17,0,42.8619218999811,,,,,,,,,42.847415099997306,42.8619218999811,43.86150659999112,44.86195570000564,44.86195570000564,,45.23049429999082,p,0.35859740001615137,None,participant quiet reading,001,2023-11-29_11h33.46.897,lastdayclasses,2023.2.3,60.06006006291562,2023-11-29 11h34.07.562180 +0530,
VVEVV,e,incon,3,0,18,3,45.24498289998155,,,,,,,,,45.232388200005516,45.24498289998155,46.24500649998663,47.24500949998037,47.24500949998037,,47.64649719998124,e,0.3943777999957092,None,participant quiet reading,001,2023-11-29_11h33.46.897,lastdayclasses,2023.2.3,60.06006006291562,2023-11-29 11h34.07.562180 +0530,
RRERR,e,incon,3,1,19,1,47.661441999982344,,,,,,,,,47.64763959997799,47.661441999982344,48.661309399991296,49.661212000006344,49.661212000006344,,50.062805699999444,e,0.3993468999979086,None,participant quiet reading,001,2023-11-29_11h33.46.897,lastdayclasses,2023.2.3,60.06006006291562,2023-11-29 11h34.07.562180 +0530,
PPPPP,p,con,3,2,20,4,50.07769099998404,,,,,,,,,50.063857600005576,50.07769099998404,51.07778900000267,52.07751829997869,52.07751829997869,52.57741139997961,52.59640509999008,p,0.5033212999987882,None,participant quiet reading,001,2023-11-29_11h33.46.897,lastdayclasses,2023.2.3,60.06006006291562,2023-11-29 11h34.07.562180 +0530,
VVPVV,p,incon,3,3,21,0,52.61096749998978,,,,,,,,,52.59757909999462,52.61096749998978,53.61076359997969,54.61046409999835,54.61046409999835,,55.04562609997811,e,0.4325855999777559,None,participant quiet reading,001,2023-11-29_11h33.46.897,lastdayclasses,2023.2.3,60.06006006291562,2023-11-29 11h34.07.562180 +0530,
RRPRR,p,incon,3,4,22,2,55.060459999978775,,,,,,,,,55.04667700000573,55.060459999978775,56.060410399979446,57.060210700001335,57.060210700001335,57.560224899993045,57.57890759999282,p,0.5040037000144366,None,participant quiet reading,001,2023-11-29_11h33.46.897,lastdayclasses,2023.2.3,60.06006006291562,2023-11-29 11h34.07.562180 +0530,
EEEEE,e,con,3,5,23,5,57.59357880000607,,,,,,,,,57.58001919998787,57.59357880000607,58.593768899998395,59.59314290000475,59.59314290000475,60.0930309999967,60.09444739998435,e,0.4918918999901507,None,participant quiet reading,001,2023-11-29_11h33.46.897,lastdayclasses,2023.2.3,60.06006006291562,2023-11-29 11h34.07.562180 +0530,
PPPPP,p,con,4,0,24,4,60.11000119999517,,,,,,,,,60.095475399983115,60.11000119999517,61.10963079999783,62.109568899992155,62.109568899992155,,62.52816950000124,p,0.41465469999820925,None,participant quiet reading,001,2023-11-29_11h33.46.897,lastdayclasses,2023.2.3,60.06006006291562,2023-11-29 11h34.07.562180 +0530,
VVPVV,p,incon,4,1,25,0,62.542837199987844,,,,,,,,,62.52926640000078,62.542837199987844,63.54268919999595,64.54261330000008,64.54261330000008,65.04247059999034,65.0272699999914,p,0.4710801999899559,None,participant quiet reading,001,2023-11-29_11h33.46.897,lastdayclasses,2023.2.3,60.06006006291562,2023-11-29 11h34.07.562180 +0530,
RRERR,e,incon,4,2,26,1,65.04247059999034,,,,,,,,,65.0282660999801,65.04247059999034,66.04240999999456,67.04207870000391,67.04207870000391,,67.47769070000504,e,0.43282640000688843,None,participant quiet reading,001,2023-11-29_11h33.46.897,lastdayclasses,2023.2.3,60.06006006291562,2023-11-29 11h34.07.562180 +0530,
RRPRR,p,incon,4,3,27,2,67.49209549999796,,,,,,,,,67.47865439997986,67.49209549999796,68.49194209999405,69.49206389999017,69.49206389999017,,69.8431852000067,p,0.3424642999889329,None,participant quiet reading,001,2023-11-29_11h33.46.897,lastdayclasses,2023.2.3,60.06006006291562,2023-11-29 11h34.07.562180 +0530,
VVEVV,e,incon,4,4,28,3,69.85864239998045,,,,,,,,,69.84430289999,69.85864239998045,70.85845959998551,71.85827060000156,71.85827060000156,,72.27663409998058,e,0.4095950000046287,None,participant quiet reading,001,2023-11-29_11h33.46.897,lastdayclasses,2023.2.3,60.06006006291562,2023-11-29 11h34.07.562180 +0530,
EEEEE,e,con,4,5,29,5,72.29183849997935,,,,,,,,,72.2775897999818,72.29183849997935,73.29153940000106,74.29115549998824,74.29115549998824,74.79130489999079,74.79383239999879,e,0.4996291999996174,None,participant quiet reading,001,2023-11-29_11h33.46.897,lastdayclasses,2023.2.3,60.06006006291562,2023-11-29 11h34.07.562180 +0530,
