stimuli,corr_resp,response,trials.thisRepN,trials.thisTrialN,trials.thisN,trials.thisIndex,thisRow.t,notes,trial.started,key_resp.started,intro_2.started,intro_2.stopped,trial.stopped,key_resp.keys,key_resp.rt,key_resp.duration,reactiontime.started,Fixation.started,Fixation.stopped,question.started,key_resp_2.started,question.stopped,reactiontime.stopped,key_resp_2.keys,key_resp_2.rt,key_resp_2.duration,participant,session,date,expName,psychopyVersion,frameRate,expStart,
,,,,,,,,,0.002088599998387508,0.0072844000096665695,0.0072844000096665695,2.00662580000062,9.692417600002955,space,9.672378000002936,0.009819699989748187,,,,,,,,,,,yashashvi quiet reading,001,2023-11-28_20h14.02.033,lastdayclasses,2023.2.3,60.01921815500624,2023-11-28 20h14.47.645709 +0530,
RRPRR,p,incon,0,0,0,2,9.73075780000363,,,,,,,,,,9.71258960000705,9.73075780000363,10.738727000003564,11.705567600001814,11.705567600001814,12.205310000004829,13.040269400007674,p,1.3278692000021692,None,yashashvi quiet reading,001,2023-11-28_20h14.02.033,lastdayclasses,2023.2.3,60.01921815500624,2023-11-28 20h14.47.645709 +0530,
RRERR,e,incon,0,1,1,1,13.057180600007996,,,,,,,,,,13.045043100006296,13.057180600007996,14.071633500003372,15.054977300009341,15.054977300009341,15.554786200009403,15.707176700001583,e,0.6458857999969041,None,yashashvi quiet reading,001,2023-11-28_20h14.02.033,lastdayclasses,2023.2.3,60.01921815500624,2023-11-28 20h14.47.645709 +0530,
VVEVV,e,incon,0,2,2,3,15.723867900000187,,,,,,,,,,15.708227399998577,15.723867900000187,16.738142200003495,17.72119019999809,17.72119019999809,18.220990200003143,18.32323730000644,e,0.5897261000063736,None,yashashvi quiet reading,001,2023-11-28_20h14.02.033,lastdayclasses,2023.2.3,60.01921815500624,2023-11-28 20h14.47.645709 +0530,
EEEEE,e,con,0,3,3,5,18.33790610000142,,,,,,,,,,18.32443580000836,18.33790610000142,19.33762600000773,20.337677300005453,20.337677300005453,20.837550700001884,20.872132600008626,e,0.5270569999993313,None,yashashvi quiet reading,001,2023-11-28_20h14.02.033,lastdayclasses,2023.2.3,60.01921815500624,2023-11-28 20h14.47.645709 +0530,
VVPVV,p,incon,0,4,4,0,20.88763120000658,,,,,,,,,,20.87319730001036,20.88763120000658,21.887575900007505,22.88742350001121,22.88742350001121,23.387126900008298,23.38900380000996,p,0.4856495999993058,None,yashashvi quiet reading,001,2023-11-28_20h14.02.033,lastdayclasses,2023.2.3,60.01921815500624,2023-11-28 20h14.47.645709 +0530,
PPPPP,p,con,0,5,5,4,23.40395960000751,,,,,,,,,,23.390269499999704,23.40395960000751,24.403593100010767,25.403581300008227,25.403581300008227,,25.871480300003896,p,0.4535671000048751,None,yashashvi quiet reading,001,2023-11-28_20h14.02.033,lastdayclasses,2023.2.3,60.01921815500624,2023-11-28 20h14.47.645709 +0530,
VVEVV,e,incon,1,0,6,3,25.886872600007337,,,,,,,,,,25.87260590000369,25.886872600007337,26.886725100004696,27.886677700007567,27.886677700007567,28.386663299999782,28.371792899997672,e,0.4777957000042079,None,yashashvi quiet reading,001,2023-11-28_20h14.02.033,lastdayclasses,2023.2.3,60.01921815500624,2023-11-28 20h14.47.645709 +0530,
VVPVV,p,incon,1,1,7,0,28.386663299999782,,,,,,,,,,28.37282660001074,28.386663299999782,29.386344700003974,30.386228500006837,30.386228500006837,,30.80511159999878,p,0.4100453999999445,None,yashashvi quiet reading,001,2023-11-28_20h14.02.033,lastdayclasses,2023.2.3,60.01921815500624,2023-11-28 20h14.47.645709 +0530,
RRERR,e,incon,1,2,8,1,30.81948450001073,,,,,,,,,,30.806099800000084,30.81948450001073,31.819349099998362,32.81931089999853,32.81931089999853,,33.25423320000118,e,0.4298774999915622,None,yashashvi quiet reading,001,2023-11-28_20h14.02.033,lastdayclasses,2023.2.3,60.01921815500624,2023-11-28 20h14.47.645709 +0530,
EEEEE,e,con,1,3,9,5,33.2692137999984,,,,,,,,,,33.25590550000197,33.2692137999984,34.26906190000591,35.26874270000553,35.26874270000553,35.76875660000951,35.770630099999835,e,0.48494860000209883,None,yashashvi quiet reading,001,2023-11-28_20h14.02.033,lastdayclasses,2023.2.3,60.01921815500624,2023-11-28 20h14.47.645709 +0530,
RRPRR,p,incon,1,4,10,2,35.78553930000635,,,,,,,,,,35.77222100000654,35.78553930000635,36.785298200004036,37.785279600007925,37.785279600007925,38.28526760000386,38.2704756000021,p,0.4771219999965979,None,yashashvi quiet reading,001,2023-11-28_20h14.02.033,lastdayclasses,2023.2.3,60.01921815500624,2023-11-28 20h14.47.645709 +0530,
PPPPP,p,con,1,5,11,4,38.28526760000386,,,,,,,,,,38.27208490000339,38.28526760000386,39.285033699998166,40.28500100001111,40.28500100001111,40.78487150000001,40.80368070000259,p,0.5127601999993203,None,yashashvi quiet reading,001,2023-11-28_20h14.02.033,lastdayclasses,2023.2.3,60.01921815500624,2023-11-28 20h14.47.645709 +0530,
VVPVV,p,incon,2,0,12,0,40.81820570000855,,,,,,,,,,40.80470220001007,40.81820570000855,41.817958700004965,42.81792000000132,42.81792000000132,,43.286788800003706,p,0.46311989999958314,None,yashashvi quiet reading,001,2023-11-28_20h14.02.033,lastdayclasses,2023.2.3,60.01921815500624,2023-11-28 20h14.47.645709 +0530,
RRPRR,p,incon,2,1,13,2,43.301190099999076,,,,,,,,,,43.28780540000298,43.301190099999076,44.30099250000785,45.30089170001156,45.30089170001156,,45.71889470001042,p,0.41194520000135526,None,yashashvi quiet reading,001,2023-11-28_20h14.02.033,lastdayclasses,2023.2.3,60.01921815500624,2023-11-28 20h14.47.645709 +0530,
RRERR,e,incon,2,2,14,1,45.734300500000245,,,,,,,,,,45.719456000006176,45.734300500000245,46.734106300005806,47.73388710001018,47.73388710001018,,48.202797600009944,p,0.46341289998963475,None,yashashvi quiet reading,001,2023-11-28_20h14.02.033,lastdayclasses,2023.2.3,60.01921815500624,2023-11-28 20h14.47.645709 +0530,
EEEEE,e,con,2,3,15,5,48.217344999997295,,,,,,,,,,48.20384240000567,48.217344999997295,49.21704010000394,50.21703520001029,50.21703520001029,50.71697649999987,50.752046000008704,e,0.5313301999995019,None,yashashvi quiet reading,001,2023-11-28_20h14.02.033,lastdayclasses,2023.2.3,60.01921815500624,2023-11-28 20h14.47.645709 +0530,
VVEVV,e,incon,2,4,16,3,50.766932099999394,,,,,,,,,,50.75308770000993,50.766932099999394,51.76667989999987,52.76658310000494,52.76658310000494,,53.168776300008176,e,0.38750310000614263,None,yashashvi quiet reading,001,2023-11-28_20h14.02.033,lastdayclasses,2023.2.3,60.01921815500624,2023-11-28 20h14.47.645709 +0530,
PPPPP,p,con,2,5,17,4,53.1834314000007,,,,,,,,,,53.16974640000262,53.1834314000007,54.183299099997384,55.183001900004456,55.183001900004456,55.68302300000505,55.685029100000975,p,0.4862321999971755,None,yashashvi quiet reading,001,2023-11-28_20h14.02.033,lastdayclasses,2023.2.3,60.01921815500624,2023-11-28 20h14.47.645709 +0530,
VVEVV,e,incon,3,0,18,3,55.69983270000375,,,,,,,,,,55.68595160001132,55.69983270000375,56.69949460000498,57.699569600008545,57.699569600008545,58.19925879999937,58.25126380000438,e,0.5415541000111261,None,yashashvi quiet reading,001,2023-11-28_20h14.02.033,lastdayclasses,2023.2.3,60.01921815500624,2023-11-28 20h14.47.645709 +0530,
PPPPP,p,con,3,1,19,4,58.26605260001088,,,,,,,,,,58.25223540001025,58.26605260001088,59.26577150000958,60.265771400008816,60.265771400008816,,60.734677000000374,p,0.4591610000061337,None,yashashvi quiet reading,001,2023-11-28_20h14.02.033,lastdayclasses,2023.2.3,60.01921815500624,2023-11-28 20h14.47.645709 +0530,
RRERR,e,incon,3,2,20,1,60.749106300005224,,,,,,,,,,60.73574940000253,60.749106300005224,61.748912100010784,62.74888009999995,62.74888009999995,63.24858350001159,63.2502000000095,e,0.4923391000047559,None,yashashvi quiet reading,001,2023-11-28_20h14.02.033,lastdayclasses,2023.2.3,60.01921815500624,2023-11-28 20h14.47.645709 +0530,
EEEEE,e,con,3,3,21,5,63.26513450000493,,,,,,,,,,63.251239600009285,63.26513450000493,64.26508420000027,65.26497879999806,65.26497879999806,65.76477780001005,65.80012140001054,e,0.5309152999980142,None,yashashvi quiet reading,001,2023-11-28_20h14.02.033,lastdayclasses,2023.2.3,60.01921815500624,2023-11-28 20h14.47.645709 +0530,
VVPVV,p,incon,3,4,22,0,65.81506639999861,,,,,,,,,,65.80117690000043,65.81506639999861,66.81472870000289,67.81465359999856,67.81465359999856,68.31436650000978,68.31633739999961,p,0.49757079999835696,None,yashashvi quiet reading,001,2023-11-28_20h14.02.033,lastdayclasses,2023.2.3,60.01921815500624,2023-11-28 20h14.47.645709 +0530,
RRPRR,p,incon,3,5,23,2,68.33150910001132,,,,,,,,,,68.31739890000608,68.33150910001132,69.33113479999884,70.33111320000899,70.33111320000899,70.83116000000155,70.96648519999871,p,0.6281171000009635,None,yashashvi quiet reading,001,2023-11-28_20h14.02.033,lastdayclasses,2023.2.3,60.01921815500624,2023-11-28 20h14.47.645709 +0530,
EEEEE,e,con,4,0,24,5,70.98097450000932,,,,,,,,,,70.96749010001076,70.98097450000932,71.98094819999824,72.98073270000168,72.98073270000168,73.4807201000076,73.51575820001017,e,0.5309479999996256,None,yashashvi quiet reading,001,2023-11-28_20h14.02.033,lastdayclasses,2023.2.3,60.01921815500624,2023-11-28 20h14.47.645709 +0530,
VVEVV,e,incon,4,1,25,3,73.53072429999884,,,,,,,,,,73.51680840000336,73.53072429999884,74.53040000000328,75.53043350001099,75.53043350001099,76.03022760000022,76.04924780000874,e,0.5065686000016285,None,yashashvi quiet reading,001,2023-11-28_20h14.02.033,lastdayclasses,2023.2.3,60.01921815500624,2023-11-28 20h14.47.645709 +0530,
VVPVV,p,incon,4,2,26,0,76.06388700001116,,,,,,,,,,76.05052000000433,76.06388700001116,77.06340040000214,78.06326799999806,78.06326799999806,78.56310540001141,78.66539580000972,p,0.5946150000090711,None,yashashvi quiet reading,001,2023-11-28_20h14.02.033,lastdayclasses,2023.2.3,60.01921815500624,2023-11-28 20h14.47.645709 +0530,
PPPPP,p,con,4,3,27,4,78.68003709999903,,,,,,,,,,78.66644280000764,78.68003709999903,79.67988429999969,80.67972179999924,80.67972179999924,81.17965560000448,81.23194910000893,p,0.534814999991795,None,yashashvi quiet reading,001,2023-11-28_20h14.02.033,lastdayclasses,2023.2.3,60.01921815500624,2023-11-28 20h14.47.645709 +0530,
RRPRR,p,incon,4,4,28,2,81.24634230000083,,,,,,,,,,81.23310870000569,81.24634230000083,82.24623000000429,83.24593689999892,83.24593689999892,,83.69793460000074,p,0.43461340000794735,None,yashashvi quiet reading,001,2023-11-28_20h14.02.033,lastdayclasses,2023.2.3,60.01921815500624,2023-11-28 20h14.47.645709 +0530,
RRERR,e,incon,4,5,29,1,83.71268140000757,,,,,,,,,,83.69890010000381,83.71268140000757,84.71278610000445,85.712414300011,85.712414300011,86.212065300002,86.23042259999784,e,0.5086123999935808,None,yashashvi quiet reading,001,2023-11-28_20h14.02.033,lastdayclasses,2023.2.3,60.01921815500624,2023-11-28 20h14.47.645709 +0530,
