stimuli,corr_resp,response,trials.thisRepN,trials.thisTrialN,trials.thisN,trials.thisIndex,thisRow.t,notes,trial.started,key_resp.started,intro_2.started,intro_2.stopped,trial.stopped,key_resp.keys,key_resp.rt,key_resp.duration,reactiontime.started,Fixation.started,Fixation.stopped,question.started,key_resp_2.started,question.stopped,reactiontime.stopped,key_resp_2.keys,key_resp_2.rt,key_resp_2.duration,participant,session,date,expName,psychopyVersion,frameRate,expStart,
,,,,,,,,,0.001587700011441484,0.0038222000002861023,0.0038222000002861023,2.0161407999985386,4.200446800008649,space,4.193453699990641,None,,,,,,,,,,,yashashvi last day,001,2023-11-25_16h51.54.811,lastdayclasses,2023.2.3,60.07947313070618,2023-11-25 16h52.09.969724 +0530,
VVEVV,e,incon,0,0,0,3,4.230283899989445,,,,,,,,,,4.214980399992783,4.230283899989445,5.2324694999842905,6.2157761999988,6.2157761999988,6.715510399983032,8.516986900009215,e,2.298905300005572,None,yashashvi last day,001,2023-11-25_16h51.54.811,lastdayclasses,2023.2.3,60.07947313070618,2023-11-25 16h52.09.969724 +0530,
RRPRR,p,incon,0,1,1,2,8.531615999992937,,,,,,,,,,8.518376599997282,8.531615999992937,9.531813699984923,10.531918799999403,10.531918799999403,11.031406599999173,11.583336399984546,p,1.0356203000119422,None,yashashvi last day,001,2023-11-25_16h51.54.811,lastdayclasses,2023.2.3,60.07947313070618,2023-11-25 16h52.09.969724 +0530,
RRERR,e,incon,0,2,2,1,11.598407699988456,,,,,,,,,,11.584298700006912,11.598407699988456,12.597988099994836,13.598060899996199,13.598060899996199,14.097600999986753,14.182753600005526,e,0.5766111999982968,None,yashashvi last day,001,2023-11-25_16h51.54.811,lastdayclasses,2023.2.3,60.07947313070618,2023-11-25 16h52.09.969724 +0530,
VVPVV,p,incon,0,3,3,0,14.197837999992771,,,,,,,,,,14.184280699992087,14.197837999992771,15.197846199997002,16.197513799997978,16.197513799997978,16.697466199984774,16.866385900008027,p,0.6570176999957766,None,yashashvi last day,001,2023-11-25_16h51.54.811,lastdayclasses,2023.2.3,60.07947313070618,2023-11-25 16h52.09.969724 +0530,
EEEEE,e,con,0,4,4,5,16.880971899983706,,,,,,,,,,16.867514199984726,16.880971899983706,17.88086909998674,18.880670699989423,18.880670699989423,,19.281800199998543,e,0.3846526999841444,None,yashashvi last day,001,2023-11-25_16h51.54.811,lastdayclasses,2023.2.3,60.07947313070618,2023-11-25 16h52.09.969724 +0530,
PPPPP,p,con,0,5,5,4,19.29717740000342,,,,,,,,,,19.283021799987182,19.29717740000342,20.296973799995612,21.29693219999899,21.29693219999899,,21.7480668000062,p,0.4364149000030011,None,yashashvi last day,001,2023-11-25_16h51.54.811,lastdayclasses,2023.2.3,60.07947313070618,2023-11-25 16h52.09.969724 +0530,
PPPPP,p,con,1,0,6,4,21.76353699999163,,,,,,,,,,21.749079500004882,21.76353699999163,22.763581200008048,23.763278500002343,23.763278500002343,,24.198516900010873,p,0.4179154000012204,None,yashashvi last day,001,2023-11-25_16h51.54.811,lastdayclasses,2023.2.3,60.07947313070618,2023-11-25 16h52.09.969724 +0530,
RRPRR,p,incon,1,1,7,2,24.21342499999446,,,,,,,,,,24.199518699984765,24.21342499999446,25.213385599985486,26.212839899992105,26.212839899992105,26.712996299989754,26.747959900007118,e,0.5179011999862269,None,yashashvi last day,001,2023-11-25_16h51.54.811,lastdayclasses,2023.2.3,60.07947313070618,2023-11-25 16h52.09.969724 +0530,
EEEEE,e,con,1,2,8,5,26.763103800010867,,,,,,,,,,26.748960299999453,26.763103800010867,27.76266549999127,28.762698100006673,28.762698100006673,29.26239680001163,29.380955400003586,e,0.6048127000103705,None,yashashvi last day,001,2023-11-25_16h51.54.811,lastdayclasses,2023.2.3,60.07947313070618,2023-11-25 16h52.09.969724 +0530,
RRERR,e,incon,1,3,9,1,29.395969700010028,,,,,,,,,,29.38193569998839,29.395969700010028,30.395760799990967,31.395467599999392,31.395467599999392,31.89548659999855,32.03046410001116,e,0.6291132000042126,None,yashashvi last day,001,2023-11-25_16h51.54.811,lastdayclasses,2023.2.3,60.07947313070618,2023-11-25 16h52.09.969724 +0530,
VVEVV,e,incon,1,4,10,3,32.04550229999586,,,,,,,,,,32.031514200003585,32.04550229999586,33.04533990001073,34.04524879998644,34.04524879998644,34.5453167000087,34.63093519999529,e,0.5831204999994952,None,yashashvi last day,001,2023-11-25_16h51.54.811,lastdayclasses,2023.2.3,60.07947313070618,2023-11-25 16h52.09.969724 +0530,
VVPVV,p,incon,1,5,11,0,34.645251300011296,,,,,,,,,,34.63211529998807,34.645251300011296,35.64517850000993,36.64509430000908,36.64509430000908,37.144745099998545,37.16260909999255,p,0.5135367999901064,None,yashashvi last day,001,2023-11-25_16h51.54.811,lastdayclasses,2023.2.3,60.07947313070618,2023-11-25 16h52.09.969724 +0530,
RRPRR,p,incon,2,0,12,2,37.17805610000505,,,,,,,,,,37.16362599999411,37.17805610000505,38.17811859998619,39.1778137999936,39.1778137999936,,39.62921909999568,p,0.44446940001216717,None,yashashvi last day,001,2023-11-25_16h51.54.811,lastdayclasses,2023.2.3,60.07947313070618,2023-11-25 16h52.09.969724 +0530,
VVPVV,p,incon,2,1,13,0,39.644329300004756,,,,,,,,,,39.63019989998429,39.644329300004756,40.6442790000001,41.64442170000984,41.64442170000984,42.14405100001022,42.19539320000331,p,0.5347129000001587,None,yashashvi last day,001,2023-11-25_16h51.54.811,lastdayclasses,2023.2.3,60.07947313070618,2023-11-25 16h52.09.969724 +0530,
VVEVV,e,incon,2,2,14,3,42.21072339999955,,,,,,,,,,42.19662179998704,42.21072339999955,43.21056099998532,44.2106586000009,44.2106586000009,44.71046249999199,44.79537030000938,e,0.5806086999946274,None,yashashvi last day,001,2023-11-25_16h51.54.811,lastdayclasses,2023.2.3,60.07947313070618,2023-11-25 16h52.09.969724 +0530,
RRERR,e,incon,2,3,15,1,44.81036539998604,,,,,,,,,,44.79643399998895,44.81036539998604,45.81043079998926,46.81049959998927,46.81049959998927,47.31041969999205,47.41140139999334,e,0.5950274999777321,None,yashashvi last day,001,2023-11-25_16h51.54.811,lastdayclasses,2023.2.3,60.07947313070618,2023-11-25 16h52.09.969724 +0530,
PPPPP,p,con,2,4,16,4,47.42658309999388,,,,,,,,,,47.41239599999972,47.42658309999388,48.426393800007645,49.42684470000677,49.42684470000677,49.926496800006134,50.02777129999595,p,0.5888404000143055,None,yashashvi last day,001,2023-11-25_16h51.54.811,lastdayclasses,2023.2.3,60.07947313070618,2023-11-25 16h52.09.969724 +0530,
EEEEE,e,con,2,5,17,5,50.04350400000112,,,,,,,,,,50.02894729998661,50.04350400000112,51.04288110000198,52.04270719998749,52.04270719998749,52.54297099998803,52.57837509998353,e,0.526589499990223,None,yashashvi last day,001,2023-11-25_16h51.54.811,lastdayclasses,2023.2.3,60.07947313070618,2023-11-25 16h52.09.969724 +0530,
VVPVV,p,incon,3,0,18,0,52.5929243999999,,,,,,,,,,52.579357399983564,52.5929243999999,53.59280340000987,54.5925464000029,54.5925464000029,55.0922436999972,55.126827400003094,p,0.5284468999889214,None,yashashvi last day,001,2023-11-25_16h51.54.811,lastdayclasses,2023.2.3,60.07947313070618,2023-11-25 16h52.09.969724 +0530,
VVEVV,e,incon,3,1,19,3,55.14229009998962,,,,,,,,,,55.12792689999333,55.14229009998962,56.14236440000241,57.14197540000896,57.14197540000896,57.64203869999619,57.64383549999911,e,0.4957719999947585,None,yashashvi last day,001,2023-11-25_16h51.54.811,lastdayclasses,2023.2.3,60.07947313070618,2023-11-25 16h52.09.969724 +0530,
PPPPP,p,con,3,2,20,4,57.65874499999336,,,,,,,,,,57.64493809998385,57.65874499999336,58.658491999987746,59.658328599995,59.658328599995,,60.11031250000815,p,0.4487921000109054,None,yashashvi last day,001,2023-11-25_16h51.54.811,lastdayclasses,2023.2.3,60.07947313070618,2023-11-25 16h52.09.969724 +0530,
RRERR,e,incon,3,3,21,1,60.12540119999903,,,,,,,,,,60.111315299989656,60.12540119999903,61.12491710000904,62.124847700004466,62.124847700004466,62.62504670000635,62.69349469998269,e,0.5526833000185434,None,yashashvi last day,001,2023-11-25_16h51.54.811,lastdayclasses,2023.2.3,60.07947313070618,2023-11-25 16h52.09.969724 +0530,
EEEEE,e,con,3,4,22,5,62.708485100010876,,,,,,,,,,62.69460449999315,62.708485100010876,63.70813590000034,64.70764609999605,64.70764609999605,65.2077486999915,65.34267919999547,e,0.6230191999929957,None,yashashvi last day,001,2023-11-25_16h51.54.811,lastdayclasses,2023.2.3,60.07947313070618,2023-11-25 16h52.09.969724 +0530,
RRPRR,p,incon,3,5,23,2,65.35768159999861,,,,,,,,,,65.3438121000072,65.35768159999861,66.35772339999676,67.35757160000503,67.35757160000503,67.8575947000063,67.89286639998318,p,0.5312716999906115,None,yashashvi last day,001,2023-11-25_16h51.54.811,lastdayclasses,2023.2.3,60.07947313070618,2023-11-25 16h52.09.969724 +0530,
EEEEE,e,con,4,0,24,5,67.90764250000939,,,,,,,,,,67.89387120000902,67.90764250000939,68.90733729998465,69.90696039999602,69.90696039999602,70.40727180000977,70.4919152999937,e,0.5708909000095446,None,yashashvi last day,001,2023-11-25_16h51.54.811,lastdayclasses,2023.2.3,60.07947313070618,2023-11-25 16h52.09.969724 +0530,
RRPRR,p,incon,4,1,25,2,70.5070102000027,,,,,,,,,,70.4933835999982,70.5070102000027,71.50684009998804,72.50671310001053,72.50671310001053,,72.90828889998375,p,0.38475039997138083,None,yashashvi last day,001,2023-11-25_16h51.54.811,lastdayclasses,2023.2.3,60.07947313070618,2023-11-25 16h52.09.969724 +0530,
VVEVV,e,incon,4,2,26,3,72.92335840000305,,,,,,,,,,72.90927699999884,72.92335840000305,73.92321740000625,74.92291009999462,74.92291009999462,,75.37480980000691,e,0.4478596999833826,None,yashashvi last day,001,2023-11-25_16h51.54.811,lastdayclasses,2023.2.3,60.07947313070618,2023-11-25 16h52.09.969724 +0530,
VVPVV,p,incon,4,3,27,0,75.38966670000809,,,,,,,,,,75.37594999998691,75.38966670000809,76.38980499998434,77.38948670000536,77.38948670000536,,77.82407020000392,p,0.4303588999900967,None,yashashvi last day,001,2023-11-25_16h51.54.811,lastdayclasses,2023.2.3,60.07947313070618,2023-11-25 16h52.09.969724 +0530,
RRERR,e,incon,4,4,28,1,77.83939030001056,,,,,,,,,,77.82514589998755,77.83939030001056,78.83933630000683,79.83918419998372,79.83918419998372,,80.2907150000101,e,0.43561220000265166,None,yashashvi last day,001,2023-11-25_16h51.54.811,lastdayclasses,2023.2.3,60.07947313070618,2023-11-25 16h52.09.969724 +0530,
PPPPP,p,con,4,5,29,4,80.30581980000716,,,,,,,,,,80.29176069999812,80.30581980000716,81.30593460000819,82.30564820001018,82.30564820001018,,82.69063800000004,p,0.3767519000102766,None,yashashvi last day,001,2023-11-25_16h51.54.811,lastdayclasses,2023.2.3,60.07947313070618,2023-11-25 16h52.09.969724 +0530,
